File: discord_bot/crypto_data/xrd_usd_hourly_data.csv
timestamp,price_usd
2024-11-04 00:00:00,0.01521
2024-11-04 01:00:00,0.0152662
2024-11-04 02:00:00,0.0152836
2024-11-04 03:00:00,0.0151625
2024-11-04 04:00:00,0.0152102
2024-11-04 05:00:00,0.0151638
2024-11-04 06:00:00,0.0151482
2024-11-04 07:00:00,0.015073
2024-11-04 08:00:00,0.0150497
2024-11-04 09:00:00,0.0150538
2024-11-04 10:00:00,0.0150678
2024-11-04 11:00:00,0.0150307
2024-11-04 12:00:00,0.0150088
2024-11-04 13:00:00,0.0149616
2024-11-04 14:00:00,0.014898
2024-11-04 15:00:00,0.0148954
2024-11-04 16:00:00,0.0147023
2024-11-04 17:00:00,0.0146806
2024-11-04 18:00:00,0.0146164
2024-11-04 19:00:00,0.0146505
2024-11-04 20:00:00,0.0146578
2024-11-04 21:00:00,0.0145416
2024-11-04 22:00:00,0.014634
2024-11-04 23:00:00,0.014608
2024-11-05 00:00:00,0.0146334
2024-11-05 01:00:00,0.0146229
2024-11-05 02:00:00,0.0146081
2024-11-05 03:00:00,0.0146336
2024-11-05 04:00:00,0.014729
2024-11-05 05:00:00,0.0147397
2024-11-05 06:00:00,0.0147077
2024-11-05 07:00:00,0.0147501
2024-11-05 08:00:00,0.0147714
2024-11-05 09:00:00,0.0146826
2024-11-05 10:00:00,0.0145941
2024-11-05 11:00:00,0.0146095
2024-11-05 12:00:00,0.0146233
2024-11-05 13:00:00,0.0146138
2024-11-05 14:00:00,0.0147774
2024-11-05 15:00:00,0.0146759
2024-11-05 16:00:00,0.0148348
2024-11-05 17:00:00,0.0147144
2024-11-05 18:00:00,0.0148056
2024-11-05 19:00:00,0.0147002
2024-11-05 20:00:00,0.0147026
2024-11-05 21:00:00,0.0146813
2024-11-05 22:00:00,0.0147297
2024-11-05 23:00:00,0.0146736
2024-11-06 00:00:00,0.0149989
2024-11-06 01:00:00,0.0149398
2024-11-06 02:00:00,0.0152954
2024-11-06 03:00:00,0.0154389
2024-11-06 04:00:00,0.0155195
2024-11-06 05:00:00,0.0155037
2024-11-06 06:00:00,0.0157052
2024-11-06 07:00:00,0.0153334
2024-11-06 08:00:00,0.0151819
2024-11-06 09:00:00,0.0151221
2024-11-06 10:00:00,0.0151479
2024-11-06 11:00:00,0.0152237
2024-11-06 12:00:00,0.0152483
2024-11-06 13:00:00,0.0153138
2024-11-06 14:00:00,0.0153002
2024-11-06 15:00:00,0.0154971
2024-11-06 16:00:00,0.0155094
2024-11-06 17:00:00,0.0155059
2024-11-06 18:00:00,0.0156164
2024-11-06 19:00:00,0.0156329
2024-11-06 20:00:00,0.0157114
2024-11-06 21:00:00,0.0157145
2024-11-06 22:00:00,0.0157817
2024-11-06 23:00:00,0.0158108
2024-11-07 00:00:00,0.0157118
2024-11-07 01:00:00,0.0158433
2024-11-07 02:00:00,0.0158882
2024-11-07 03:00:00,0.015987
2024-11-07 04:00:00,0.0159434
2024-11-07 05:00:00,0.016046
2024-11-07 06:00:00,0.0158136
2024-11-07 07:00:00,0.0157522
2024-11-07 08:00:00,0.0157804
2024-11-07 09:00:00,0.0156689
2024-11-07 10:00:00,0.0156598
2024-11-07 11:00:00,0.0156223
2024-11-07 12:00:00,0.0157166
2024-11-07 13:00:00,0.0156723
2024-11-07 14:00:00,0.015605
2024-11-07 15:00:00,0.0158723
2024-11-07 16:00:00,0.0159574
2024-11-07 17:00:00,0.015932
2024-11-07 18:00:00,0.0159782
2024-11-07 19:00:00,0.0159017
2024-11-07 20:00:00,0.0162009
2024-11-07 21:00:00,0.0162194
2024-11-07 22:00:00,0.0163056
2024-11-07 23:00:00,0.0163057
2024-11-08 00:00:00,0.0163653
2024-11-08 01:00:00,0.0162376
2024-11-08 02:00:00,0.0162166
2024-11-08 03:00:00,0.016178
2024-11-08 04:00:00,0.0162969
2024-11-08 05:00:00,0.0162819
2024-11-08 06:00:00,0.0161774
2024-11-08 07:00:00,0.0160529
2024-11-08 08:00:00,0.0160711
2024-11-08 09:00:00,0.0160144
2024-11-08 10:00:00,0.016051
2024-11-08 11:00:00,0.0159796
2024-11-08 12:00:00,0.0159676
2024-11-08 13:00:00,0.0159558
2024-11-08 14:00:00,0.0158176
2024-11-08 15:00:00,0.0159633
2024-11-08 16:00:00,0.0158691
2024-11-08 17:00:00,0.0160401
2024-11-08 18:00:00,0.0160975
2024-11-08 19:00:00,0.0160969
2024-11-08 20:00:00,0.0160294
2024-11-08 21:00:00,0.016102
2024-11-08 22:00:00,0.0162235
2024-11-08 23:00:00,0.0162405
2024-11-09 00:00:00,0.016191
2024-11-09 01:00:00,0.016286
2024-11-09 02:00:00,0.0163111
2024-11-09 03:00:00,0.0163069
2024-11-09 04:00:00,0.0163522
2024-11-09 05:00:00,0.0164217
2024-11-09 06:00:00,0.0163994
2024-11-09 07:00:00,0.0164182
2024-11-09 08:00:00,0.0164488
2024-11-09 09:00:00,0.0164524
2024-11-09 10:00:00,0.0164562
2024-11-09 11:00:00,0.0162376
2024-11-09 12:00:00,0.01628
2024-11-09 13:00:00,0.0163424
2024-11-09 14:00:00,0.0163694
2024-11-09 15:00:00,0.0162989
2024-11-09 16:00:00,0.01627
2024-11-09 17:00:00,0.0162457
2024-11-09 18:00:00,0.0163397
2024-11-09 19:00:00,0.0163933
2024-11-09 20:00:00,0.0164304
2024-11-09 21:00:00,0.0163708
2024-11-09 22:00:00,0.0164758
2024-11-09 23:00:00,0.0165213
2024-11-10 00:00:00,0.0165434
2024-11-10 01:00:00,0.0165573
2024-11-10 02:00:00,0.0165353
2024-11-10 03:00:00,0.0165291
2024-11-10 04:00:00,0.0167366
2024-11-10 05:00:00,0.0166746
2024-11-10 06:00:00,0.0166734
2024-11-10 07:00:00,0.0167821
2024-11-10 08:00:00,0.016639
2024-11-10 09:00:00,0.016708
2024-11-10 10:00:00,0.0166851
2024-11-10 11:00:00,0.0168719
2024-11-10 12:00:00,0.016909
2024-11-10 13:00:00,0.0170165
2024-11-10 14:00:00,0.0169805
2024-11-10 15:00:00,0.0170382
2024-11-10 16:00:00,0.0169411
2024-11-10 17:00:00,0.017329
2024-11-10 18:00:00,0.0174296
2024-11-10 19:00:00,0.0171781
2024-11-10 20:00:00,0.0170598
2024-11-10 21:00:00,0.0172227
2024-11-10 22:00:00,0.0172119
2024-11-10 23:00:00,0.0172227
2024-11-11 00:00:00,0.0174101
2024-11-11 01:00:00,0.0177879
2024-11-11 02:00:00,0.0178688
2024-11-11 03:00:00,0.0179877
2024-11-11 04:00:00,0.0179389
2024-11-11 05:00:00,0.0176583
2024-11-11 06:00:00,0.0177889
2024-11-11 07:00:00,0.0178083
2024-11-11 08:00:00,0.0177342
2024-11-11 09:00:00,0.0178079
2024-11-11 10:00:00,0.0177964
2024-11-11 11:00:00,0.0177579
2024-11-11 12:00:00,0.0174267
2024-11-11 13:00:00,0.0173469
2024-11-11 14:00:00,0.01717
2024-11-11 15:00:00,0.0174565
2024-11-11 16:00:00,0.0174216
2024-11-11 17:00:00,0.0175924
2024-11-11 18:00:00,0.0173351
2024-11-11 19:00:00,0.017278
2024-11-11 20:00:00,0.0173889
2024-11-11 21:00:00,0.0173763
2024-11-11 22:00:00,0.0173213
2024-11-11 23:00:00,0.0175455
2024-11-12 00:00:00,0.0173183
2024-11-12 01:00:00,0.0170288
2024-11-12 02:00:00,0.0169034
2024-11-12 03:00:00,0.0167181
2024-11-12 04:00:00,0.0166161
2024-11-12 05:00:00,0.0164712
2024-11-12 06:00:00,0.0165055
2024-11-12 07:00:00,0.0164462
2024-11-12 08:00:00,0.0163995
2024-11-12 09:00:00,0.0161874
2024-11-12 10:00:00,0.0159191
2024-11-12 11:00:00,0.0159067
2024-11-12 12:00:00,0.0157621
2024-11-12 13:00:00,0.015756
2024-11-12 14:00:00,0.0158367
2024-11-12 15:00:00,0.0157587
2024-11-12 16:00:00,0.0158597
2024-11-12 17:00:00,0.0158521
2024-11-12 18:00:00,0.0162033
2024-11-12 19:00:00,0.0162152
2024-11-12 20:00:00,0.0162295
2024-11-12 21:00:00,0.0161019
2024-11-12 22:00:00,0.0162057
2024-11-12 23:00:00,0.016173
2024-11-13 00:00:00,0.0163889
2024-11-13 01:00:00,0.0164908
2024-11-13 02:00:00,0.0164935
2024-11-13 03:00:00,0.0162374
2024-11-13 04:00:00,0.0161534
2024-11-13 05:00:00,0.0161074
2024-11-13 06:00:00,0.0160117
2024-11-13 07:00:00,0.0161252
2024-11-13 08:00:00,0.0161115
2024-11-13 09:00:00,0.0160869
2024-11-13 10:00:00,0.0161091
2024-11-13 11:00:00,0.0161845
2024-11-13 12:00:00,0.0163088
2024-11-13 13:00:00,0.0163591
2024-11-13 14:00:00,0.0166371
2024-11-13 15:00:00,0.0167277
2024-11-13 16:00:00,0.0168135
2024-11-13 17:00:00,0.0166727
2024-11-13 18:00:00,0.0167495
2024-11-13 19:00:00,0.0163997
2024-11-13 20:00:00,0.0163834
2024-11-13 21:00:00,0.0161314
2024-11-13 22:00:00,0.0163839
2024-11-13 23:00:00,0.016534
2024-11-14 00:00:00,0.0164474
2024-11-14 01:00:00,0.0164851
2024-11-14 02:00:00,0.016445
2024-11-14 03:00:00,0.0164739
2024-11-14 04:00:00,0.0164915
2024-11-14 05:00:00,0.0165429
2024-11-14 06:00:00,0.0164334
2024-11-14 07:00:00,0.0165264
2024-11-14 08:00:00,0.0165638
2024-11-14 09:00:00,0.0165649
2024-11-14 10:00:00,0.0165503
2024-11-14 11:00:00,0.0165609
2024-11-14 12:00:00,0.0165183
2024-11-14 13:00:00,0.016458
2024-11-14 14:00:00,0.0163338
2024-11-14 15:00:00,0.0160998
2024-11-14 16:00:00,0.0161457
2024-11-14 17:00:00,0.0161663
2024-11-14 18:00:00,0.0161243
2024-11-14 19:00:00,0.0161315
2024-11-14 20:00:00,0.0160421
2024-11-14 21:00:00,0.0160055
2024-11-14 22:00:00,0.0159972
2024-11-14 23:00:00,0.0158644
2024-11-15 00:00:00,0.0160561
2024-11-15 01:00:00,0.0159019
2024-11-15 02:00:00,0.0159392
2024-11-15 03:00:00,0.0159188
2024-11-15 04:00:00,0.0157784
2024-11-15 05:00:00,0.0157964
2024-11-15 06:00:00,0.0158502
2024-11-15 07:00:00,0.0158506
2024-11-15 08:00:00,0.0158845
2024-11-15 09:00:00,0.0159996
2024-11-15 10:00:00,0.0159971
2024-11-15 11:00:00,0.016047
2024-11-15 12:00:00,0.0159835
2024-11-15 13:00:00,0.0160432
2024-11-15 14:00:00,0.0158844
2024-11-15 15:00:00,0.0158405
2024-11-15 16:00:00,0.0158966
2024-11-15 17:00:00,0.0158974
2024-11-15 18:00:00,0.015843
2024-11-15 19:00:00,0.0159376
2024-11-15 20:00:00,0.0160649
2024-11-15 21:00:00,0.0161023
2024-11-15 22:00:00,0.0160579
2024-11-15 23:00:00,0.0160164
2024-11-16 00:00:00,0.0159885
2024-11-16 01:00:00,0.0160112
2024-11-16 02:00:00,0.0160493
2024-11-16 03:00:00,0.0160373
2024-11-16 04:00:00,0.0159749
2024-11-16 05:00:00,0.0160331
2024-11-16 06:00:00,0.0160881
2024-11-16 07:00:00,0.0160525
2024-11-16 08:00:00,0.0159867
2024-11-16 09:00:00,0.0160383
2024-11-16 10:00:00,0.0159936
2024-11-16 11:00:00,0.0160686
2024-11-16 12:00:00,0.015994
2024-11-16 13:00:00,0.0160059
2024-11-16 14:00:00,0.0160475
2024-11-16 15:00:00,0.0160144
2024-11-16 16:00:00,0.0160988
2024-11-16 17:00:00,0.0161437
2024-11-16 18:00:00,0.0163799
2024-11-16 19:00:00,0.0164007
2024-11-16 20:00:00,0.0164416
2024-11-16 21:00:00,0.0164222
2024-11-16 22:00:00,0.0163862
2024-11-16 23:00:00,0.0163056
2024-11-17 00:00:00,0.0163619
2024-11-17 01:00:00,0.0163203
2024-11-17 02:00:00,0.016174
2024-11-17 03:00:00,0.0162201
2024-11-17 04:00:00,0.0163183
2024-11-17 05:00:00,0.016298
2024-11-17 06:00:00,0.0163398
2024-11-17 07:00:00,0.0163908
2024-11-17 08:00:00,0.0164303
2024-11-17 09:00:00,0.0165851
2024-11-17 10:00:00,0.0166181
2024-11-17 11:00:00,0.016539
2024-11-17 12:00:00,0.016513
2024-11-17 13:00:00,0.0164799
2024-11-17 14:00:00,0.0163634
2024-11-17 15:00:00,0.0163059
2024-11-17 16:00:00,0.0163683
2024-11-17 17:00:00,0.0164677
2024-11-17 18:00:00,0.0163574
2024-11-17 19:00:00,0.0162767
2024-11-17 20:00:00,0.0162847
2024-11-17 21:00:00,0.0162484
2024-11-17 22:00:00,0.0163656
2024-11-17 23:00:00,0.0164257
2024-11-18 00:00:00,0.016435
2024-11-18 01:00:00,0.0165146
2024-11-18 02:00:00,0.0164755
2024-11-18 03:00:00,0.0165117
2024-11-18 04:00:00,0.0165669
2024-11-18 05:00:00,0.016496
2024-11-18 06:00:00,0.0165955
2024-11-18 07:00:00,0.0166009
2024-11-18 08:00:00,0.016596
2024-11-18 09:00:00,0.0165414
2024-11-18 10:00:00,0.0167028
2024-11-18 11:00:00,0.0165289
2024-11-18 12:00:00,0.0164966
2024-11-18 13:00:00,0.0163996
2024-11-18 14:00:00,0.0164638
2024-11-18 15:00:00,0.0167246
2024-11-18 16:00:00,0.0166583
2024-11-18 17:00:00,0.0168603
2024-11-18 18:00:00,0.0169527
2024-11-18 19:00:00,0.0170399
2024-11-18 20:00:00,0.0171648
2024-11-18 21:00:00,0.0173434
2024-11-18 22:00:00,0.0173724
2024-11-18 23:00:00,0.0172363
2024-11-19 00:00:00,0.0172271
2024-11-19 01:00:00,0.0170867
2024-11-19 02:00:00,0.0171859
2024-11-19 03:00:00,0.0171882
2024-11-19 04:00:00,0.0171578
2024-11-19 05:00:00,0.0171966
2024-11-19 06:00:00,0.0171716
2024-11-19 07:00:00,0.0170923
2024-11-19 08:00:00,0.017038
2024-11-19 09:00:00,0.0170328
2024-11-19 10:00:00,0.0169956
2024-11-19 11:00:00,0.0169776
2024-11-19 12:00:00,0.0171188
2024-11-19 13:00:00,0.0169748
2024-11-19 14:00:00,0.0170786
2024-11-19 15:00:00,0.0171439
2024-11-19 16:00:00,0.0171175
2024-11-19 17:00:00,0.017241
2024-11-19 18:00:00,0.0172864
2024-11-19 19:00:00,0.0172948
2024-11-19 20:00:00,0.0173251
2024-11-19 21:00:00,0.0167568
2024-11-19 22:00:00,0.0165546
2024-11-19 23:00:00,0.0166907
2024-11-20 00:00:00,0.0166226
2024-11-20 01:00:00,0.0165734
2024-11-20 02:00:00,0.0165347
2024-11-20 03:00:00,0.0164289
2024-11-20 04:00:00,0.0163947
2024-11-20 05:00:00,0.0164082
2024-11-20 06:00:00,0.0163728
2024-11-20 07:00:00,0.0163517
2024-11-20 08:00:00,0.0163767
2024-11-20 09:00:00,0.0164137
2024-11-20 10:00:00,0.0163247
2024-11-20 11:00:00,0.0163
2024-11-20 12:00:00,0.0162699
2024-11-20 13:00:00,0.0164381
2024-11-20 14:00:00,0.0163924
2024-11-20 15:00:00,0.0163654
2024-11-20 16:00:00,0.0166805
2024-11-20 17:00:00,0.016858
2024-11-20 18:00:00,0.016595
2024-11-20 19:00:00,0.0166968
2024-11-20 20:00:00,0.0165981
2024-11-20 21:00:00,0.0164941
2024-11-20 22:00:00,0.0165732
2024-11-20 23:00:00,0.0166378
2024-11-21 00:00:00,0.0166926
2024-11-21 01:00:00,0.016633
2024-11-21 02:00:00,0.0164834
2024-11-21 03:00:00,0.0166238
2024-11-21 04:00:00,0.0166985
2024-11-21 05:00:00,0.0167594
2024-11-21 06:00:00,0.0168586
2024-11-21 07:00:00,0.0170185
2024-11-21 08:00:00,0.0168865
2024-11-21 09:00:00,0.0168596
2024-11-21 10:00:00,0.0169709
2024-11-21 11:00:00,0.0169047
2024-11-21 12:00:00,0.0170514
2024-11-21 13:00:00,0.0171198
2024-11-21 14:00:00,0.0170147
2024-11-21 15:00:00,0.0168924
2024-11-21 16:00:00,0.0169685
2024-11-21 17:00:00,0.0172169
2024-11-21 18:00:00,0.017306
2024-11-21 19:00:00,0.0171582
2024-11-21 20:00:00,0.0171529
2024-11-21 21:00:00,0.0170583
2024-11-21 22:00:00,0.01729
2024-11-21 23:00:00,0.0173064
2024-11-22 00:00:00,0.0172302
2024-11-22 01:00:00,0.0172036
2024-11-22 02:00:00,0.0173702
2024-11-22 03:00:00,0.0174212
2024-11-22 04:00:00,0.0173933
2024-11-22 05:00:00,0.0173438
2024-11-22 06:00:00,0.0174232
2024-11-22 07:00:00,0.0174612
2024-11-22 08:00:00,0.0174968
2024-11-22 09:00:00,0.0176816
2024-11-22 10:00:00,0.0177589
2024-11-22 11:00:00,0.0179833
2024-11-22 12:00:00,0.0181427
2024-11-22 13:00:00,0.0179318
2024-11-22 14:00:00,0.0180511
2024-11-22 15:00:00,0.018688
2024-11-22 16:00:00,0.0189206
2024-11-22 17:00:00,0.0192673
2024-11-22 18:00:00,0.0196408
2024-11-22 19:00:00,0.0198876
2024-11-22 20:00:00,0.0198079
2024-11-22 21:00:00,0.0199918
2024-11-22 22:00:00,0.0199255
2024-11-22 23:00:00,0.0206311
2024-11-23 00:00:00,0.0206534
2024-11-23 01:00:00,0.0206779
2024-11-23 02:00:00,0.0208482
2024-11-23 03:00:00,0.0217041
2024-11-23 04:00:00,0.0231013
2024-11-23 05:00:00,0.0231843
2024-11-23 06:00:00,0.021678
2024-11-23 07:00:00,0.0213069
2024-11-23 08:00:00,0.0219357
2024-11-23 09:00:00,0.0220459
2024-11-23 10:00:00,0.0218693
2024-11-23 11:00:00,0.0220028
2024-11-23 12:00:00,0.0223882
2024-11-23 13:00:00,0.0229427
2024-11-23 14:00:00,0.0225595
2024-11-23 15:00:00,0.022532
2024-11-23 16:00:00,0.0227222
2024-11-23 17:00:00,0.0224076
2024-11-23 18:00:00,0.0221545
2024-11-23 19:00:00,0.0221174
2024-11-23 20:00:00,0.0219689
2024-11-23 21:00:00,0.0221576
2024-11-23 22:00:00,0.02225
2024-11-23 23:00:00,0.0222231
2024-11-24 00:00:00,0.0222835
2024-11-24 01:00:00,0.022486
2024-11-24 02:00:00,0.0223541
2024-11-24 03:00:00,0.0222492
2024-11-24 04:00:00,0.0222198
2024-11-24 05:00:00,0.0222067
2024-11-24 06:00:00,0.0222618
2024-11-24 07:00:00,0.0222829
2024-11-24 08:00:00,0.022183
2024-11-24 09:00:00,0.0219815
2024-11-24 10:00:00,0.0218743
2024-11-24 11:00:00,0.0214774
2024-11-24 12:00:00,0.0211375
2024-11-24 13:00:00,0.0211025
2024-11-24 14:00:00,0.0208946
2024-11-24 15:00:00,0.0206774
2024-11-24 16:00:00,0.0207784
2024-11-24 17:00:00,0.0206006
2024-11-24 18:00:00,0.0207012
2024-11-24 19:00:00,0.0208475
2024-11-24 20:00:00,0.0209189
2024-11-24 21:00:00,0.0209956
2024-11-24 22:00:00,0.0211313
2024-11-24 23:00:00,0.0212233
2024-11-25 00:00:00,0.0213258
2024-11-25 01:00:00,0.021154
2024-11-25 02:00:00,0.0212777
2024-11-25 03:00:00,0.0214558
2024-11-25 04:00:00,0.0214998
2024-11-25 05:00:00,0.0216176
2024-11-25 06:00:00,0.0216269
2024-11-25 07:00:00,0.0217322
2024-11-25 08:00:00,0.02196
2024-11-25 09:00:00,0.022253
2024-11-25 10:00:00,0.0223131
2024-11-25 11:00:00,0.0222504
2024-11-25 12:00:00,0.0226224
2024-11-25 13:00:00,0.0223255
2024-11-25 14:00:00,0.0216322
2024-11-25 15:00:00,0.0218206
2024-11-25 16:00:00,0.0219152
2024-11-25 17:00:00,0.0218735
2024-11-25 18:00:00,0.0219234
2024-11-25 19:00:00,0.0219645
2024-11-25 20:00:00,0.021957
2024-11-25 21:00:00,0.0219639
2024-11-25 22:00:00,0.0220473
2024-11-25 23:00:00,0.0221947
2024-11-26 00:00:00,0.0226207
2024-11-26 01:00:00,0.0233277
2024-11-26 02:00:00,0.0243238
2024-11-26 03:00:00,0.0245263
2024-11-26 04:00:00,0.0245298
2024-11-26 05:00:00,0.0242679
2024-11-26 06:00:00,0.0242463
2024-11-26 07:00:00,0.0240444
2024-11-26 08:00:00,0.0235873
2024-11-26 09:00:00,0.0235619
2024-11-26 10:00:00,0.0231444
2024-11-26 11:00:00,0.0230087
2024-11-26 12:00:00,0.0230951
2024-11-26 13:00:00,0.0234796
2024-11-26 14:00:00,0.0243777
2024-11-26 15:00:00,0.0248259
2024-11-26 16:00:00,0.0247096
2024-11-26 17:00:00,0.0248686
2024-11-26 18:00:00,0.0244227
2024-11-26 19:00:00,0.024292
2024-11-26 20:00:00,0.0240227
2024-11-26 21:00:00,0.0235837
2024-11-26 22:00:00,0.0239507
2024-11-26 23:00:00,0.0238586
2024-11-27 00:00:00,0.0240447
2024-11-27 01:00:00,0.0242566
2024-11-27 02:00:00,0.0246445
2024-11-27 03:00:00,0.0253448
2024-11-27 04:00:00,0.0254852
2024-11-27 05:00:00,0.0255758
2024-11-27 06:00:00,0.0258159
2024-11-27 07:00:00,0.0261066
2024-11-27 08:00:00,0.0266493
2024-11-27 09:00:00,0.0264071
2024-11-27 10:00:00,0.0261241
2024-11-27 11:00:00,0.0256825
2024-11-27 12:00:00,0.0251711
2024-11-27 13:00:00,0.0250808
2024-11-27 14:00:00,0.0265014
2024-11-27 15:00:00,0.0280495
2024-11-27 16:00:00,0.0282156
2024-11-27 17:00:00,0.0290356
2024-11-27 18:00:00,0.0293934
2024-11-27 19:00:00,0.0288238
2024-11-27 20:00:00,0.0287468
2024-11-27 21:00:00,0.0286099
2024-11-27 22:00:00,0.0283587
2024-11-27 23:00:00,0.0279959
2024-11-28 00:00:00,0.0275481
2024-11-28 01:00:00,0.0274263
2024-11-28 02:00:00,0.0273585
2024-11-28 03:00:00,0.0271965
2024-11-28 04:00:00,0.0269005
2024-11-28 05:00:00,0.0270442
2024-11-28 06:00:00,0.0267101
2024-11-28 07:00:00,0.026743
2024-11-28 08:00:00,0.0283008
2024-11-28 09:00:00,0.0282843
2024-11-28 10:00:00,0.02845
2024-11-28 11:00:00,0.0290132
2024-11-28 12:00:00,0.0291384
2024-11-28 13:00:00,0.029172
2024-11-28 14:00:00,0.029261
2024-11-28 15:00:00,0.0284156
2024-11-28 16:00:00,0.0278414
2024-11-28 17:00:00,0.0276426
2024-11-28 18:00:00,0.0275831
2024-11-28 19:00:00,0.0274394
2024-11-28 20:00:00,0.0273283
2024-11-28 21:00:00,0.0273591
2024-11-28 22:00:00,0.0272276
2024-11-28 23:00:00,0.0272258
2024-11-29 00:00:00,0.0267899
2024-11-29 01:00:00,0.0267176
2024-11-29 02:00:00,0.0267263
2024-11-29 03:00:00,0.026617
2024-11-29 04:00:00,0.0261685
2024-11-29 05:00:00,0.0260033
2024-11-29 06:00:00,0.0250996
2024-11-29 07:00:00,0.0247403
2024-11-29 08:00:00,0.0262663
2024-11-29 09:00:00,0.027394
2024-11-29 10:00:00,0.0282771
2024-11-29 11:00:00,0.0283005
2024-11-29 12:00:00,0.0285278
2024-11-29 13:00:00,0.0287983
2024-11-29 14:00:00,0.0293399
2024-11-29 15:00:00,0.0298414
2024-11-29 16:00:00,0.0300587
2024-11-29 17:00:00,0.0297713
2024-11-29 18:00:00,0.0300306
2024-11-29 19:00:00,0.0307846
2024-11-29 20:00:00,0.0314274
2024-11-29 21:00:00,0.0310163
2024-11-29 22:00:00,0.0309278
2024-11-29 23:00:00,0.0302268
2024-11-30 00:00:00,0.0296617
2024-11-30 01:00:00,0.0288653
2024-11-30 02:00:00,0.0291461
2024-11-30 03:00:00,0.0290743
2024-11-30 04:00:00,0.0290527
2024-11-30 05:00:00,0.0292118
2024-11-30 06:00:00,0.0293117
2024-11-30 07:00:00,0.0293826
2024-11-30 08:00:00,0.0290671
2024-11-30 09:00:00,0.0289762
2024-11-30 10:00:00,0.0288458
2024-11-30 11:00:00,0.0288696
2024-11-30 12:00:00,0.0289604
2024-11-30 13:00:00,0.028984
2024-11-30 14:00:00,0.029067
2024-11-30 15:00:00,0.0287308
2024-11-30 16:00:00,0.0285906
2024-11-30 17:00:00,0.0289117
2024-11-30 18:00:00,0.0288909
2024-11-30 19:00:00,0.0287113
2024-11-30 20:00:00,0.0299219
2024-11-30 21:00:00,0.0304627
2024-11-30 22:00:00,0.0303603
2024-11-30 23:00:00,0.0307398
2024-12-01 00:00:00,0.030176
2024-12-01 01:00:00,0.0302707
2024-12-01 02:00:00,0.0297641
2024-12-01 03:00:00,0.0300386
2024-12-01 04:00:00,0.0304816
2024-12-01 05:00:00,0.0308725
2024-12-01 06:00:00,0.0311374
2024-12-01 07:00:00,0.0313027
2024-12-01 08:00:00,0.0310174
2024-12-01 09:00:00,0.0304426
2024-12-01 10:00:00,0.0301098
2024-12-01 11:00:00,0.0302236
2024-12-01 12:00:00,0.0303417
2024-12-01 13:00:00,0.0301583
2024-12-01 14:00:00,0.0301653
2024-12-01 15:00:00,0.0302556
2024-12-01 16:00:00,0.0300525
2024-12-01 17:00:00,0.0300226
2024-12-01 18:00:00,0.0299544
2024-12-01 19:00:00,0.0297838
2024-12-01 20:00:00,0.0296668
2024-12-01 21:00:00,0.0301313
2024-12-01 22:00:00,0.0300981
2024-12-01 23:00:00,0.0298795
2024-12-02 00:00:00,0.0299099
2024-12-02 01:00:00,0.0301355
2024-12-02 02:00:00,0.0299851
2024-12-02 03:00:00,0.0297325
2024-12-02 04:00:00,0.0292514
2024-12-02 05:00:00,0.0290958
2024-12-02 06:00:00,0.0289697
2024-12-02 07:00:00,0.0288183
2024-12-02 08:00:00,0.0284459
2024-12-02 09:00:00,0.0283859
2024-12-02 10:00:00,0.0282052
2024-12-02 11:00:00,0.0283177
2024-12-02 12:00:00,0.0285711
2024-12-02 13:00:00,0.0289987
2024-12-02 14:00:00,0.0291395
2024-12-02 15:00:00,0.0291668
2024-12-02 16:00:00,0.029291
2024-12-02 17:00:00,0.028828
2024-12-02 18:00:00,0.0290523
2024-12-02 19:00:00,0.0290601
2024-12-02 20:00:00,0.0290566
2024-12-02 21:00:00,0.0292385
2024-12-02 22:00:00,0.0293366
2024-12-02 23:00:00,0.0296071
2024-12-03 00:00:00,0.0296946
2024-12-03 01:00:00,0.0299381
2024-12-03 02:00:00,0.0303318
2024-12-03 03:00:00,0.0302205
2024-12-03 04:00:00,0.030553
2024-12-03 05:00:00,0.0308673
2024-12-03 06:00:00,0.0310113
2024-12-03 07:00:00,0.0312046
2024-12-03 08:00:00,0.0308488
2024-12-03 09:00:00,0.0311206
2024-12-03 10:00:00,0.0310346
2024-12-03 11:00:00,0.0317686
2024-12-03 12:00:00,0.0333019
2024-12-03 13:00:00,0.0319639
2024-12-03 14:00:00,0.0318405
2024-12-03 15:00:00,0.0324118
2024-12-03 16:00:00,0.0324321
2024-12-03 17:00:00,0.0323427
2024-12-03 18:00:00,0.0322511
2024-12-03 19:00:00,0.0320739
2024-12-03 20:00:00,0.0321602
2024-12-03 21:00:00,0.0324369
2024-12-03 22:00:00,0.0327593
2024-12-03 23:00:00,0.0328684
2024-12-04 00:00:00,0.0329748